#Uf/V. If/A. Ua/V. Ia/uA
#=======================
5.165689    1.985717    -4.9800    0.0005852762840e-6 
5.149699    1.985534    -4.4800    0.0014911867300e-6 
5.141591    1.985749    -3.9800    -0.000324050906e-6 
5.123312    1.985583    -3.5800    0.0012918223500e-6 
5.133184    1.985791    -3.0840    0.0003809257480e-6 
5.137108    1.985668    -2.4866    0.0017588368900e-6 
5.140379    1.985601    -1.9880    0.0016490434300e-6 
5.133504    1.985696    -1.4900    0.0026190382100e-6 
5.139292    1.985629    -1.2410    0.0021008216000e-6 
5.140445    1.985668    -0.9816    0.0100512345000e-6 
5.122868    1.985622    -0.7908    0.0318056896000e-6 
5.124965    1.985640    -0.4930    0.1082682980000e-6 
5.129747    1.985615    -0.2440    0.3192088120000e-6 
5.144136    1.985650    0.00300    0.7854573820000e-6 
5.134094    1.985640    0.24400    1.4154521800000e-6 
5.166637    1.985583    0.49300    2.1978319200000e-6 
5.139528    1.985739    0.74200    3.3115770300000e-6 
5.146723    1.985753    0.99100    4.6589298600000e-6 
5.154102    1.985611    1.24100    6.1566152000000e-6 
5.164713    1.985590    1.49000    7.7133937800000e-6 
5.193853    1.985671    1.73900    9.4290667700000e-6 
5.175412    1.985643    1.98800    11.243125400000e-6 
5.169127    1.985671    2.23700    13.059658100000e-6 
5.159151    1.985636    2.43660    15.150848600000e-6 
5.164703    1.985647    2.68540    17.171702500000e-6 
5.157341    1.985661    2.98500    19.284837400000e-6 
5.156835    1.985626    3.23400    21.264732300000e-6 
5.142390    1.985583    3.48300    23.427568000000e-6 
5.144990    1.985678    3.68240    25.273608800000e-6 
5.151418    1.985774    3.98000    26.977142800000e-6 
5.149508    1.985618    4.18000    28.806556500000e-6 
5.157598    1.985608    4.48000    30.365780900000e-6 
5.143126    1.985696    4.73000    31.852312500000e-6 
5.132344    1.985611    4.98000    33.236273900000e-6 
5.141928    1.985647    5.48000    35.978241100000e-6 
5.151320    1.985597    5.98000    39.009950000000e-6 
5.176606    1.985647    6.51000    40.999843600000e-6 
5.127247    1.985636    6.99000    42.915933900000e-6 
5.139924    1.985689    7.47000    44.401729200000e-6 
5.128458    1.985622    7.97600    45.974553400000e-6 
5.124795    1.985664    8.45000    47.604886900000e-6 
5.156591    1.985650    9.00000    48.683283900000e-6 
5.134080    1.985597    9.40800    50.574301900000e-6 
5.144455    1.985569    9.99000    51.859760000000e-6 
5.163685    1.985633    10.9400    53.838133300000e-6 
5.123760    1.985675    10.9800    53.879222600000e-6 
5.130479    1.985597    11.8040    55.501982100000e-6 
5.163627    1.985523    12.7620    56.642278100000e-6 
5.150605    1.985647    14.0200    57.647229900000e-6 
5.131268    1.985594    15.0100    58.337607400000e-6 
5.156536    1.985583    16.0400    58.908940200000e-6 
5.146522    1.985675    16.9480    59.346830300000e-6 
5.112614    1.985626    17.9700    59.721837200000e-6 
5.113854    1.985686    18.9600    60.041579400000e-6 
5.110847    1.985664    19.9500    60.304711300000e-6 
5.122066    1.985760    28.5720    61.909378100000e-6 
5.127392    1.985710    38.4660    62.745573700000e-6 
5.130341    1.985647    49.3000    63.303908100000e-6 
5.133854    1.985643    60.3000    63.868556000000e-6 
5.160109    1.985739    68.0600    64.279187900000e-6 
5.124090    1.985770    80.0000    64.640728600000e-6 
5.129531    1.985689    87.7600    64.958711200000e-6 
5.121021    1.985664    99.7000    65.244360800000e-6 
5.121045    1.985615    121.780    65.911578100000e-6 
5.134681    1.985671    150.000    66.377180800000e-6 
5.177738    1.985650    173.700    66.807223400000e-6 
5.117719    1.985604    178.700    66.887124700000e-6 
5.112805    1.985618    205.300    67.303504400000e-6 
5.111475    1.985735    241.620    67.938756500000e-6 
5.106242    1.985618    299.000    68.525072000000e-6 
5.109541    1.985689    349.300    69.084807900000e-6 
5.120108    1.985657    399.600    69.579445900000e-6 
5.125826    1.985749    438.320    70.028951600000e-6 
5.121979    1.985721    474.000    70.253004600000e-6 
5.115764    1.985693    424.800    69.804007200000e-6 
5.115382    1.985686    373.000    69.311760900000e-6 
5.121094    1.985636    325.000    68.808300900000e-6 
5.131517    1.985555    499.000    70.472055200000e-6 
